Folder: Parameter-Calibration/SPM_parameter_sets

Note: SPM_parameter_sets/Chen2020_plating_variable.txt
SPMe model variables:
	- Time
	- Time [s]
	- Time [min]
	- Time [h]
	- x
	- x [m]
	- x_n
	- x_n [m]
	- x_s
	- x_s [m]
	- x_p
	- x_p [m]
	- Sum of electrolyte reaction source terms
	- Sum of positive electrode electrolyte reaction source terms
	- Sum of x-averaged positive electrode electrolyte reaction source terms
	- Sum of interfacial current densities
	- Sum of positive electrode interfacial current densities
	- Sum of x-averaged positive electrode interfacial current densities
	- Sum of negative electrode electrolyte reaction source terms
	- Sum of x-averaged negative electrode electrolyte reaction source terms
	- Sum of negative electrode interfacial current densities
	- Sum of x-averaged negative electrode interfacial current densities
	- r_p
	- r_p [m]
	- r_n
	- r_n [m]
	- Current density variable
	- Total current density
	- Total current density [A.m-2]
	- Current [A]
	- C-rate
	- Discharge capacity [A.h]
	- Porosity
	- Separator porosity
	- Positive electrode porosity
	- X-averaged separator porosity
	- X-averaged positive electrode porosity
	- Negative electrode porosity
	- X-averaged negative electrode porosity
	- Leading-order porosity
	- Leading-order separator porosity
	- Leading-order positive electrode porosity
	- Leading-order x-averaged separator porosity
	- Leading-order x-averaged positive electrode porosity
	- Leading-order negative electrode porosity
	- Leading-order x-averaged negative electrode porosity
	- Porosity change
	- Separator porosity change
	- Positive electrode porosity change
	- X-averaged separator porosity change
	- X-averaged positive electrode porosity change
	- Negative electrode porosity change
	- X-averaged negative electrode porosity change
	- Leading-order x-averaged separator porosity change
	- Leading-order x-averaged positive electrode porosity change
	- Leading-order x-averaged negative electrode porosity change
	- Negative electrode interface utilisation variable
	- X-averaged negative electrode interface utilisation variable
	- Negative electrode interface utilisation
	- X-averaged negative electrode interface utilisation
	- Positive electrode interface utilisation variable
	- X-averaged positive electrode interface utilisation variable
	- Positive electrode interface utilisation
	- X-averaged positive electrode interface utilisation
	- Negative electrode active material volume fraction
	- X-averaged negative electrode active material volume fraction
	- Negative electrode capacity [A.h]
	- Negative particle radius
	- Negative particle radius [m]
	- Negative electrode surface area to volume ratio
	- Negative electrode surface area to volume ratio [m-1]
	- X-averaged negative electrode surface area to volume ratio
	- X-averaged negative electrode surface area to volume ratio [m-1]
	- Negative electrode active material volume fraction change
	- X-averaged negative electrode active material volume fraction change
	- Positive electrode active material volume fraction
	- X-averaged positive electrode a

Note: SPM_parameter_sets/Ecker2015_parameter.txt
SPMe model parameters:
	- Negative current collector thickness [m]: 1.4000000000000001e-05
	- Negative electrode thickness [m]: 7.4e-05
	- Separator thickness [m]: 2e-05
	- Positive electrode thickness [m]: 5.4000000000000005e-05
	- Positive current collector thickness [m]: 1.4999999999999999e-05
	- Electrode height [m]: 0.10099999999999999
	- Electrode width [m]: 0.085
	- Negative tab width [m]: 0.006999999999999999
	- Negative tab centre y-coordinate [m]: 0.0045
	- Negative tab centre z-coordinate [m]: 0.10099999999999999
	- Positive tab width [m]: 0.0069
	- Positive tab centre y-coordinate [m]: 0.0309
	- Positive tab centre z-coordinate [m]: 0.10099999999999999
	- Cell cooling surface area [m2]: 0.0172
	- Cell volume [m3]: 1.52e-06
	- Negative current collector conductivity [S.m-1]: 58411000.0
	- Positive current collector conductivity [S.m-1]: 36914000.0
	- Negative current collector density [kg.m-3]: 8933.0
	- Positive current collector density [kg.m-3]: 2702.0
	- Negative current collector specific heat capacity [J.kg-1.K-1]: 385.0
	- Positive current collector specific heat capacity [J.kg-1.K-1]: 903.0
	- Negative current collector thermal conductivity [W.m-1.K-1]: 398.0
	- Positive current collector thermal conductivity [W.m-1.K-1]: 238.0
	- Nominal cell capacity [A.h]: 0.15625
	- Typical current [A]: 0.15652
	- Current function [A]: 0.15652
	- Negative electrode conductivity [S.m-1]: 14.0
	- Maximum concentration in negative electrode [mol.m-3]: 31920.0
	- Measured negative electrode diffusivity [m2.s-1]: ('measured_graphite_diffusivity_Ecker2015', ([array([0.04291659, 0.08025338, 0.12014957, 0.15796121, 0.19575227,
       0.23576503, 0.27144412, 0.31002889, 0.34841653, 0.38667045,
       0.42641578, 0.46418627, 0.50187791, 0.54121182, 0.57667491,
       0.61480369, 0.65458159, 0.76813993, 0.80894297, 0.88230341,
       0.92208646, 0.96075009, 0.99763602])], array([2.53189836e-13, 4.43829239e-14, 3.19474263e-14, 2.60779630e-14,
       2.25590858e-14, 1.16865022e-14, 1.23869273e-14, 2.02919545e-14,
       3.26047164e-15, 7.64015664e-16, 8.41774737e-16, 7.71709353e-16,
       8.83792155e-16, 3.10917132e-15, 6.06218467e-15, 3.59593721e-14,
       2.03230938e-15, 7.80266422e-16, 7.72894292e-16, 9.65829674e-16,
       9.56699959e-16, 1.25457764e-15, 1.39568471e-14])))
	- Negative electrode diffusivity [m2.s-1]: <function graphite_diffusivity_Ecker2015 at 0x000001ED6D77C378>
	- Measured negative electrode OCP [V]: ('graphite_ocp_Ecker2015', ([array([0.00151515, 0.00606061, 0.01060606, 0.01666667, 0.02121212,
       0.02272727, 0.03030303, 0.03939394, 0.04545455, 0.0530303 ,
       0.06666667, 0.07878788, 0.08939394, 0.10151515, 0.12727273,
       0.14242424, 0.15909091, 0.17727273, 0.19393939, 0.21363636,
       0.23333333, 0.25757576, 0.27878788, 0.3030303 , 0.32878788,
       0.35151515, 0.37121212, 0.39242424, 0.56818182, 0.58787879,
       0.60606061, 0.62727273, 0.65454545, 0.67424242, 0.69393939,
       0.71818182, 0.73939394, 0.89090909

File: Chen2020_plating_parameter.txt
SPMe model parameters:
	- Negative current collector thickness [m]: 1.2e-05
	- Negative electrode thickness [m]: 8.52e-05
	- Separator thickness [m]: 1.2e-05
	- Positive electrode thickness [m]: 7.56e-05
	- Positive current collector thickness [m]: 1.6e-05
	- Electrode height [m]: 0.065
	- Electrode width [m]: 1.58
	- Cell cooling surface area [m2]: 0.00531
	- Cell volume [m3]: 2.42e-05
	- Negative current collector conductivity [S.m-1]: 58411000.0
	- Positive current collector conductivity [S.m-1]: 36914000.0
	- Negative current collector density [kg.m-3]: 8960.0
	- Positive current collector density [kg.m-3]: 2700.0
	- Negative current collector specific heat capacity [J.kg-1.K-1]: 385.0
	- Positive current collector specific heat capacity [J.kg-1.K-1]: 897.0
	- Negative current collector thermal conductivity [W.m-1.K-1]: 401.0
	- Positive current collector thermal conductivity [W.m-1.K-1]: 237.0
	- Nominal cell capacity [A.h]: 5.0
	- Typical current [A]: 5.0
	- Current function [A]: 5.0
	- Negative electrode conductivity [S.m-1]: 215.0
	- Maximum concentration in negative electrode [mol.m-3]: 33133.0
	- Negative electrode diffusivity [m2.s-1]: <function graphite_LGM50_diffusivity_Chen2020 at 0x000001ED6D7ACE18>
	- Negative electrode OCP [V]: ('graphite_LGM50_ocp_Chen2020', ([array([0.        , 0.03129623, 0.03499902, 0.0387018 , 0.04240458,
       0.04610736, 0.04981015, 0.05351292, 0.05721568, 0.06091845,
       0.06462122, 0.06832399, 0.07202675, 0.07572951, 0.07943227,
       0.08313503, 0.08683779, 0.09054054, 0.09424331, 0.09794607,
       0.101649, 0.105352, 0.109054, 0.1127571 , 0.11646,
       0.120163, 0.123865, 0.127568, 0.131271, 0.134974,
       0.138676, 0.142379, 0.146082, 0.149785, 0.153487,
       0.15719, 0.160893, 0.1645957 , 0.168298, 0.172001,
       0.175704, 0.179407, 0.1831095 , 0.186812, 0.190515,
       0.1942178 , 0.197921, 0.201623, 0.2053261 , 0.209029,
       0.212732, 0.2164344 , 0.220137, 0.22384, 0.2275427 ,
       0.231245, 0.234948, 0.238651, 0.242354, 0.246057,
       0.2497593 , 0.253462, 0.257165, 0.260868, 0.26457,
       0.268273, 0.2719759 , 0.275679, 0.279381, 0.283084,
       0.286787, 0.29049, 0.294193, 0.297895, 0.301598,
       0.305301, 0.309004, 0.312706, 0.316409, 0.320112,
       0.323815, 0.327517, 0.33122, 0.334923, 0.338626,
       0.342329, 0.346031, 0.349734, 0.353437, 0.35714,
       0.360842, 0.364545, 0.368248, 0.371951, 0.375653,
       0.379356, 0.383059, 0.386762, 0.3904646 , 0.394167,
       0.39787, 0.401573, 0.405276, 0.408978, 0.412681,
       0.416384, 0.420087, 0.42379, 0.4274923 , 0.431195,
       0.434898, 0.438601, 0.442303, 0.446006, 0.449709,
       0.453412, 0.457114, 0.460817, 0.46452, 0.468223,
       0.471925, 0.475628, 0.479331, 0.483034, 0.486737,
       0.490439, 0.494142, 0.497845, 0.501548, 0.50525,
       0.508953, 0.512656, 0.516359, 0.520061, 0.523764,
       0.527467, 0.53117, 0.534872, 0.538575, 0.542278,
       0.545981, 0.5496835 , 0.553386, 0.557089, 0.560792,
       0.564495, 0.5681973 , 0.5719, 0.575603, 0.579306,
       0.583008, 0.586711, 0.590414, 0.594117, 0.597819,
       0.601522, 0.605225, 0.608928, 0.61263, 0.616333,
       0.620036, 0.6237388 , 0.627442, 0.631144, 0.634847,
       0.63855, 0.642253, 0.645955, 0.649658, 0.653361  ,
       0.657064, 0.660767, 0.664469, 0.668172, 0.671875,
       0.675578, 0.67928, 0.682983, 0.686686  , 0.690389,
       0.694092, 0.697794, 0.701497, 0.7052, 0.708903,
       0.7126054 , 0.716308, 0.720011, 0.723714, 0.727416,
       0.731119, 0.734822, 0.7385248 , 0.742228, 0.74593,
       0.749633, 0.753336, 0.757039, 0.760741, 0.764444,
       0.768147, 0.77185, 0.775553, 0.779255, 0.782958,
       0.786661, 0.790364, 0.794066, 0.797769, 0.801472,
       0.805175, 0.808878, 0.81258, 0.816283, 0.819986,
       0.823689, 0.827391, 0.831094, 0.834797, 0.8385,
       0.842202, 0.845905, 0.849608, 0.853311, 0.857014,
       0.860716, 0.864419, 0.868122, 0.871825, 0.875527,
       0.87923, 0.882933, 0.886636, 0.890338, 0.894041,
       0.897744, 0.9014468 , 1.        ])], array([1.81773, 1.08288 , 0.995938, 0.900234, 0.796494,
       0.733544, 0.666643, 0.641371, 0.598139, 0.5670836 ,
       0.547462, 0.530684, 0.513047, 0.493941, 0.479263,
       0.460653, 0.459927, 0.438015, 0.424387, 0.411503,
       0.400337, 0.389571, 0.377565, 0.362925, 0.343571,
       0.3406314 , 0.322995, 0.313795, 0.307954, 0.292073,
       0.286977, 0.274055, 0.2670497 , 0.258575, 0.252658,
       0.248268, 0.2414345 , 0.233628, 0.229562, 0.223702,
       0.221813, 0.220897, 0.2194268 , 0.218301, 0.218453,
       0.217537, 0.217194, 0.216354, 0.216678, 0.217384,
       0.214693, 0.215418, 0.214655, 0.2135479 , 0.21393,
       0.210742, 0.208738, 0.204653, 0.202057, 0.197744,
       0.194441, 0.191903, 0.188505, 0.185814, 0.183275,
       0.181577, 0.178141, 0.175297, 0.1719375 , 0.169342,
       0.167566, 0.166097, 0.16415, 0.162604, 0.162241,
       0.160027  , 0.158271, 0.1588054 , 0.155522, 0.155809,
       0.152201, 0.1511132 , 0.149873, 0.148746, 0.14678,
       0.146208, 0.145559, 0.143898, 0.143593, 0.142428,
       0.140386, 0.138821, 0.139546, 0.13947, 0.137809,
       0.139737, 0.136989, 0.135233, 0.134412, 0.1352898 ,
       0.13508, 0.136473, 0.136015, 0.134355, 0.1334765 ,
       0.1348317 , 0.132751, 0.132866, 0.132637, 0.134564,
       0.134717, 0.133954, 0.134488, 0.1334765 , 0.13298,
       0.132598, 0.133381, 0.133095, 0.132751, 0.134431,
       0.133152, 0.132713  , 0.1330184 , 0.132789, 0.132255,
       0.133171, 0.132637, 0.131873, 0.132656, 0.132503,
       0.133247, 0.132045, 0.132427, 0.132331, 0.131988,
       0.132541, 0.131453, 0.13298, 0.131682, 0.1313578 ,
       0.13235, 0.131205, 0.1309, 0.131091, 0.130823,
       0.130117, 0.129869  , 0.129926, 0.12943, 0.12796,
       0.128628, 0.126567, 0.127349, 0.125097, 0.121108,
       0.118398, 0.112442, 0.113072, 0.1092165 , 0.106831,
       0.10433, 0.105304, 0.10057, 0.09950104, 0.09854668,
       0.09921473, 0.09541635, 0.09980643, 0.0986612 , 0.09560722,
       0.09755413, 0.09612258, 0.09430929, 0.09661885, 0.09366032,
       0.09522548, 0.09535909, 0.09316404, 0.09450016, 0.0930877 ,
       0.09343126, 0.0932404 , 0.09350762, 0.09339309, 0.09291591,
       0.09303043, 0.0926296 , 0.0932404 , 0.09261052, 0.09249599,
       0.09240055, 0.09253416, 0.09209515, 0.09234329, 0.09366032,
       0.09333583, 0.09322131, 0.09264868, 0.09253416, 0.09243873,
       0.09230512, 0.09310678, 0.09165615, 0.09159888, 0.09207606,
       0.09175158, 0.09177067, 0.09236237, 0.09241964, 0.09320222,
       0.09199972, 0.09167523, 0.09322131, 0.09190428, 0.09167523,
       0.09285865, 0.09180884, 0.09150345, 0.09186611, 0.0920188 ,
       0.09320222, 0.09131257, 0.09117896, 0.09133166, 0.09089265,
       0.09058725, 0.09051091, 0.09033912, 0.09041547, 0.0911217 ,
       0.0894611 , 0.08999555, 0.08921297, 0.08881213, 0.08797229,
       0.08709427, 0.08503284, 0.07601531])))
	- Negative electrode porosity: 0.25
	- Negative electrode active material volume fraction: 0.75
	- Negative particle radius [m]: 5.86e-06
	- Negative electrode Bruggeman coefficient (electrolyte): 1.5
	- Negative electrode Bruggeman coefficient (electrode): 1.5
	- Negative electrode cation signed stoichiometry: -1.0
	- Negative electrode electrons in reaction: 1.0
	- Negative electrode charge transfer coefficient: 0.5
	- Negative electrode double-layer capacity [F.m-2]: 0.2
	- Negative electrode exchange-current density [A.m-2]: <function graphite_LGM50_electrolyte_exchange_current_density_Chen2020 at 0x000001ED6D7ACAE8>
	- Negative electrode density [kg.m-3]: 1657.0
	- Negative electrode specific heat capacity [J.kg-1.K-1]: 700.0
	- Negative electrode thermal conductivity [W.m-1.K-1]: 1.7
	- Negative electrode OCP entropic change [V.K-1]: 0.0
	- Positive electrode conductivity [S.m-1]: 0.18
	- Maximum concentration in positive electrode [mol.m-3]: 63104.0
	- Positive electrode diffusivity [m2.s-1]: 4e-15
	- Positive electrode OCP [V]: <function nmc_LGM50_ocp_Chen2020 at 0x000001ED6D7AC7B8>
	- Positive electrode porosity: 0.335
	- Positive electrode active material volume fraction: 0.665
	- Positive particle radius [m]: 5.22e-06
	- Positive electrode Bruggeman coefficient (electrolyte): 1.5
	- Positive electrode Bruggeman coefficient (electrode): 1.5
	- Positive electrode cation signed stoichiometry: -1.0
	- Positive electrode electrons in reaction: 1.0
	- Positive electrode charge transfer coefficient: 0.5
	- Positive electrode double-layer capacity [F.m-2]: 0.2
	- Positive electrode exchange-current density [A.m-2]: <function nmc_LGM50_electrolyte_exchange_current_density_Chen2020 at 0x000001ED6D7ACD08>
	- Positive electrode density [kg.m-3]: 3262.0
	- Positive electrode specific heat capacity [J.kg-1.K-1]: 700.0
	- Positive electrode thermal conductivity [W.m-1.K-1]: 2.1
	- Positive electrode OCP entropic change [V.K-1]: 0.0
	- Separator porosity: 0.47
	- Separator Bruggeman coefficient (electrolyte): 1.5
	- Separator density [kg.m-3]: 397.0
	- Separator specific heat capacity [J.kg-1.K-1]: 700.0
	- Separator thermal conductivity [W.m-1.K-1]: 0.16
	- Typical electrolyte concentration [mol.m-3]: 1000.0
	- Cation transference number: 0.2594
	- 1 + dlnf/dlnc: 1.0
	- Electrolyte diffusivity [m2.s-1]: <function electrolyte_diffusivity_Nyman2008 at 0x000001ED6D7AC400>
	- Electrolyte conductivity [S.m-1]: <function electrolyte_conductivity_Nyman2008 at 0x000001ED6D7AC9D8>
	- Reference temperature [K]: 298.15
	- Total heat transfer coefficient [W.m-2.K-1]: 10.0
	- Ambient temperature [K]: 298.15
	- Number of electrodes connected in parallel to make a cell: 1.0
	- Number of cells connected in series to make a battery: 1.0
	- Lower voltage cut-off [V]: 2.5
	- Upper voltage cut-off [V]: 4.2
	- Initial concentration in negative electrode [mol.m-3]: 29866.0
	- Initial concentration in positive electrode [mol.m-3]: 17038.0
	- Initial concentration in electrolyte [mol.m-3]: 1000.0
	- Initial temperature [K]: 298.15
	- Inner SEI reaction proportion: 0.5
	- Inner SEI partial molar volume [m3.mol-1]: 9.585e-05
	- Outer SEI partial molar volume [m3.mol-1]: 9.585e-05
	- SEI reaction exchange current density [A.m-2]: 1.5e-07
	- SEI resistivity [Ohm.m]: 200000.0
	- Outer SEI solvent diffusivity [m2.s-1]: 2.5e-22
	- Bulk solvent concentration [mol.m-3]: 2636.0
	- Ratio of inner and outer SEI exchange current densities: 1.0
	- Inner SEI open-circuit potential [V]: 0.1
	- Outer SEI open-circuit potential [V]: 0.8
	- Inner SEI electron conductivity [S.m-1]: 8.95e-14
	- Inner SEI lithium interstitial diffusivity [m2.s-1]: 1e-20
	- Lithium interstitial reference concentration [mol.m-3]: 15.0
	- Initial inner SEI thickness [m]: 2.5e-09
	- Initial outer SEI thickness [m]: 2.5e-09
	- EC initial concentration in electrolyte [mol.m-3]: 4541.0
	- EC diffusivity [m2.s-1]: 2e-18
	- SEI kinetic rate constant [m.s-1]: 1e-12
	- SEI open-circuit potential [V]: 0.4
	- Negative electrode reaction-driven LAM factor [m3.mol-1]: 0.0
	- Positive electrode reaction-driven LAM factor [m3.mol-1]: 0.0
	- Lithium metal partial molar volume [m3.mol-1]: 1.3e-05
	- Lithium plating kinetic rate constant [m.s-1]: 1e-10
	- Exchange-current density for plating [A.m-2]: <function plating_exchange_current_density_OKane2020 at 0x000001ED6D7AC730>
	- Exchange-current density for stripping [A.m-2]: <function stripping_exchange_current_density_OKane2020 at 0x000001ED6D7AC2F0>
	- Initial plated lithium concentration [mol.m-3]: 0.0
	- Typical plated lithium concentration [mol.m-3]: 1000.0