Folder: Parameter-Calibration/parameter_sets/SPM_parameter_sets

Note: parameter_sets/SPM_parameter_sets/Mohtat2020_parameter.txt
SPMe model parameters:
	- Negative current collector thickness [m]: 2.5e-05
	- Negative electrode thickness [m]: 6.2e-05
	- Separator thickness [m]: 1.2e-05
	- Positive electrode thickness [m]: 6.7e-05
	- Positive current collector thickness [m]: 2.5e-05
	- Electrode height [m]: 1.0
	- Electrode width [m]: 0.205
	- Cell cooling surface area [m2]: 0.41
	- Cell volume [m3]: 3.9200000000000004e-05
	- Negative current collector conductivity [S.m-1]: 59600000.0
	- Positive current collector conductivity [S.m-1]: 35500000.0
	- Negative current collector density [kg.m-3]: 8954.0
	- Positive current collector density [kg.m-3]: 2707.0
	- Negative current collector specific heat capacity [J.kg-1.K-1]: 385.0
	- Positive current collector specific heat capacity [J.kg-1.K-1]: 897.0
	- Negative current collector thermal conductivity [W.m-1.K-1]: 401.0
	- Positive current collector thermal conductivity [W.m-1.K-1]: 237.0
	- Nominal cell capacity [A.h]: 5.0
	- Typical current [A]: 5.0
	- Current function [A]: 5.0
	- Negative electrode conductivity [S.m-1]: 100.0
	- Maximum concentration in negative electrode [mol.m-3]: 28746.0
	- Negative electrode diffusion coefficient [m2.s-1]: 5e-15
	- Negative electrode diffusivity [m2.s-1]: <function graphite_diffusivity_PeymanMPM at 0x000001ED6E5A9510>
	- Negative electrode OCP [V]: <function graphite_ocp_PeymanMPM at 0x000001ED6E5A9158>
	- Negative electrode porosity: 0.3
	- Negative electrode active material volume fraction: 0.61
	- Negative particle radius [m]: 2.5e-06
	- Negative electrode Bruggeman coefficient (electrode): 1.5
	- Negative electrode Bruggeman coefficient (electrolyte): 1.5
	- Negative electrode tortuosity: 0.16
	- Negative electrode cation signed stoichiometry: -1.0
	- Negative electrode electrons in reaction: 1.0
	- Negative electrode reference exchange-current density [A.m-2(m3.mol)1.5]: 1.061e-06
	- Negative electrode charge transfer coefficient: 0.5
	- Negative electrode double-layer capacity [F.m-2]: 0.2
	- Negative electrode exchange-current density [A.m-2]: <function graphite_electrolyte_exchange_current_density_PeymanMPM at 0x000001ED6E5A99D8>
	- Negative electrode density [kg.m-3]: 3100.0
	- Negative electrode specific heat capacity [J.kg-1.K-1]: 1100.0
	- Negative electrode thermal conductivity [W.m-1.K-1]: 1.7
	- Negative electrode OCP entropic change [V.K-1]: <function graphite_entropic_change_PeymanMPM at 0x000001ED29A2C840>
	- Positive electrode conductivity [S.m-1]: 100.0
	- Maximum concentration in positive electrode [mol.m-3]: 35380.0
	- Positive electrode diffusivity [m2.s-1]: <function NMC_diffusivity_PeymanMPM at 0x000001ED6D5647B8>
	- Positive electrode OCP [V]: <function NMC_ocp_PeymanMPM at 0x000001ED6E5A9268>
	- Positive electrode porosity: 0.3
	- Positive electrode active material volume fraction: 0.445
	- Positive particle radius [m]: 3.5e-06
	- Positive electrode Bruggeman coefficient (electrode): 1.5
	- Positive electrode Bruggeman coefficient (electrolyte): 1.5
	- Positive 

Note: parameter_sets/SPM_parameter_sets/NCA_Kim2011_parameter.txt
SPMe model parameters:
	- Negative current collector thickness [m]: 1e-05
	- Negative electrode thickness [m]: 7e-05
	- Separator thickness [m]: 2.5e-05
	- Positive electrode thickness [m]: 5e-05
	- Positive current collector thickness [m]: 1e-05
	- Electrode height [m]: 0.2
	- Electrode width [m]: 0.14
	- Negative tab width [m]: 0.044000000000000004
	- Negative tab centre y-coordinate [m]: 0.013000000000000001
	- Negative tab centre z-coordinate [m]: 0.2
	- Positive tab width [m]: 0.044000000000000004
	- Positive tab centre y-coordinate [m]: 0.13699999999999998
	- Positive tab centre z-coordinate [m]: 0.2
	- Cell cooling surface area [m2]: 0.0561
	- Cell volume [m3]: 4.62e-06
	- Negative current collector conductivity [S.m-1]: 59600000.0
	- Positive current collector conductivity [S.m-1]: 37800000.0
	- Negative current collector density [kg.m-3]: 11544.75
	- Positive current collector density [kg.m-3]: 3490.24338
	- Negative current collector specific heat capacity [J.kg-1.K-1]: 385.0
	- Positive current collector specific heat capacity [J.kg-1.K-1]: 897.0
	- Negative current collector thermal conductivity [W.m-1.K-1]: 267.467
	- Positive current collector thermal conductivity [W.m-1.K-1]: 158.079
	- Nominal cell capacity [A.h]: 0.43
	- Typical current [A]: 0.43
	- Current function [A]: 0.43
	- Negative electrode conductivity [S.m-1]: 100.0
	- Maximum concentration in negative electrode [mol.m-3]: 28700.0
	- Negative electrode diffusivity [m2.s-1]: <function graphite_diffusivity_Kim2011 at 0x000001ED6D518E18>
	- Negative electrode OCP [V]: <function graphite_ocp_Kim2011 at 0x000001ED6D518D08>
	- Negative electrode porosity: 0.4
	- Negative electrode active material volume fraction: 0.51
	- Negative particle radius [m]: 5.083e-07
	- Negative electrode Bruggeman coefficient (electrolyte): 2.0
	- Negative electrode Bruggeman coefficient (electrode): 2.0
	- Negative electrode cation signed stoichiometry: -1.0
	- Negative electrode electrons in reaction: 1.0
	- Negative electrode charge transfer coefficient: 0.5
	- Negative electrode double-layer capacity [F.m-2]: 0.2
	- Negative electrode exchange-current density [A.m-2]: <function graphite_electrolyte_exchange_current_density_Kim2011 at 0x000001ED6D518D90>
	- Negative electrode density [kg.m-3]: 2136.43638
	- Negative electrode specific heat capacity [J.kg-1.K-1]: 700.0
	- Negative electrode thermal conductivity [W.m-1.K-1]: 1.1339
	- Negative electrode OCP entropic change [V.K-1]: 0.0
	- Positive electrode conductivity [S.m-1]: 10.0
	- Maximum concentration in positive electrode [mol.m-3]: 49000.0
	- Positive electrode diffusivity [m2.s-1]: <function nca_diffusivity_Kim2011 at 0x000001ED6D518F28>
	- Positive electrode OCP [V]: ('nca_ocp_Kim2011_data', ([array([0.37021443, 0.37577436, 0.38369048, 0.39189598, 0.40106922,
       0.40686181, 0.41168962, 0.41941373, 0.42665544, 0.43293042,
       0.43969074, 0.44548431, 0.45321039, 0.45852157, 0.46286601,
       0.47107645, 0.47638764, 0.48363133, 0.48

File: Ai2020_parameter.txt
SPMe model parameters:
	- Negative current collector thickness [m]: 1e-05
	- Negative electrode thickness [m]: 7.65e-05
	- Separator thickness [m]: 2.5e-05
	- Positive electrode thickness [m]: 6.8e-05
	- Positive current collector thickness [m]: 1.5e-05
	- Electrode height [m]: 0.051
	- Electrode width [m]: 0.047
	- Cell cooling surface area [m2]: 0.0060484
	- Cell volume [m3]: 1.5341e-05
	- Cell emissivity: 0.95
	- Cell thermal expansion coefficient [m.K-1]: 1.1e-06
	- Negative current collector conductivity [S.m-1]: 58411000.0
	- Positive current collector conductivity [S.m-1]: 36914000.0
	- Negative current collector density [kg.m-3]: 8960.0
	- Positive current collector density [kg.m-3]: 2700.0
	- Negative current collector specific heat capacity [J.kg-1.K-1]: 385.0
	- Positive current collector specific heat capacity [J.kg-1.K-1]: 897.0
	- Negative current collector thermal conductivity [W.m-1.K-1]: 401.0
	- Positive current collector thermal conductivity [W.m-1.K-1]: 237.0
	- Nominal cell capacity [A.h]: 2.28
	- Typical current [A]: 2.28
	- Current function [A]: 2.28
	- Negative electrode conductivity [S.m-1]: 100.0
	- Maximum concentration in negative electrode [mol.m-3]: 28700.0
	- Negative electrode diffusivity [m2.s-1]: <function graphite_diffusivity_Dualfoil1998 at 0x000001ED6D4FE9D8>
	- Negative electrode OCP [V]: ('graphite_ocp_Enertech_Ai2020', ([array([0.00000000e+00, 0.0005, 0.00127041, 0.00152479,
       0.00190595, 0.00222356, 0.00406055, 0.00482015,
       0.00646394, 0.00741337, 0.00861651, 0.00912342,
       0.0107682, 0.012665, 0.0141183, 0.0177868,
       0.0206947, 0.0239838, 0.0305022, 0.0360011,
       0.0396067, 0.0591481, 0.0612979, 0.0713498,
       0.0802655, 0.119208, 0.128121, 0.134254,
       0.141585, 0.150874, 0.160609, 0.170346,
       0.189748, 0.209222, 0.219018, 0.228757,
       0.238553, 0.248349, 0.258084, 0.267821,
       0.287415, 0.29721, 0.307005, 0.316798,
       0.326534, 0.336322, 0.346062, 0.355856,
       0.365593, 0.375388, 0.385121, 0.394916,
       0.404717, 0.414512, 0.424245, 0.434039,
       0.44377, 0.453565, 0.463298, 0.473034,
       0.482767, 0.492565, 0.502303, 0.512043,
       0.521833, 0.531572, 0.541369, 0.551105,
       0.5609, 0.570636, 0.580435, 0.590236,
       0.599977, 0.609716, 0.619518, 0.629314,
       0.639049, 0.64879, 0.658584, 0.66832,
       0.678055, 0.687852, 0.697649, 0.707389,
       0.717188, 0.726977, 0.736776, 0.746516,
       0.756259, 0.766055, 0.775789, 0.785538,
       0.79533, 0.805081, 0.814827, 0.82457,
       0.834371, 0.844173, 0.853913, 0.863651,
       0.873392, 0.883127, 0.892918, 0.902709,
       0.912443, 0.922233, 0.93202, 0.941813,
       0.951602, 0.961393, 0.970178, 0.976051,
       0.980413, 0.983888, 0.986793, 0.989255,
       0.991401, 0.99336, 0.99513, 0.996776,
       0.998229, 0.999241, 0.999747, 0.999936,
       1])], array([3.5       , 3.        , 1.04      , 1.01      , 0.972654,
       0.942491, 0.816241, 0.780281, 0.718963, 0.691375,
       0.661392, 0.649962, 0.6165173 , 0.583311, 0.560831,
       0.512439, 0.480251, 0.448496, 0.395989, 0.359508,
       0.338478, 0.25632, 0.251174, 0.236055, 0.231009,
       0.2232966 , 0.218284, 0.213274, 0.208228, 0.20321,
       0.198621, 0.193816, 0.184167, 0.176791, 0.17383,
       0.170963, 0.1679035 , 0.16465, 0.161491, 0.158594,
       0.153399, 0.151002, 0.148862, 0.146919, 0.145328,
       0.144002, 0.142902, 0.142014, 0.141316, 0.1407591 ,
       0.140314, 0.139942, 0.139618, 0.139325, 0.139051,
       0.1387793 , 0.138517, 0.1382589 , 0.137981, 0.137672,
       0.137329, 0.136903, 0.13639, 0.135758, 0.1349471 ,
       0.133923, 0.132622, 0.130989, 0.128965, 0.12655,
       0.123743, 0.120771, 0.11793, 0.11538, 0.113205,
       0.111366, 0.109855, 0.108579, 0.107521, 0.106633,
       0.105894, 0.105261, 0.104713, 0.104254, 0.103846,
       0.103477, 0.103154, 0.102857, 0.102587, 0.102338,
       0.102102, 0.1018809 , 0.101676, 0.101466, 0.101264,
       0.101063, 0.10087, 0.100681, 0.100489, 0.1003,
       0.1001, 0.0998771 , 0.09962899, 0.09933262, 0.09895842,
       0.09844254, 0.09768364, 0.096492  , 0.09451079, 0.09113682,
       0.08611519, 0.08107875, 0.07604037, 0.07099153, 0.06589833,
       0.06084405, 0.05581012, 0.0506707 , 0.0455624 , 0.04039266,
       0.03526127, 0.03024266, 0.02485077, 0.0192515 , 0.00499468])))
	- Negative electrode porosity: 0.33
	- Negative electrode active material volume fraction: 0.61
	- Negative particle radius [m]: 5e-06
	- Negative electrode Bruggeman coefficient (electrolyte): 2.914
	- Negative electrode Bruggeman coefficient (electrode): 0.0
	- Negative electrode cation signed stoichiometry: -1.0
	- Negative electrode electrons in reaction: 1.0
	- Negative electrode charge transfer coefficient: 0.5
	- Negative electrode double-layer capacity [F.m-2]: 0.0
	- Negative electrode exchange-current density [A.m-2]: <function graphite_electrolyte_exchange_current_density_Dualfoil1998 at 0x000001ED6E4B61E0>
	- Negative electrode density [kg.m-3]: 2470.0
	- Negative electrode specific heat capacity [J.kg-1.K-1]: 1080.2
	- Negative electrode thermal conductivity [W.m-1.K-1]: 1.04
	- Negative electrode OCP entropic change [V.K-1]: <function graphite_entropy_Enertech_Ai2020_function at 0x000001ED6E4B6A60>
	- Negative electrode Poisson's ratio: 0.3
	- Negative electrode Young's modulus [Pa]: 15000000000.0
	- Negative electrode reference concentration for free of deformation [mol.m-3]: 0.0
	- Negative electrode partial molar volume [m3.mol-1]: 3.1e-06
	- Negative electrode volume change: <function graphite_volume_change_Ai2020 at 0x000001ED6E4B6D08>
	- Negative electrode initial crack length [m]: 2e-08
	- Negative electrode initial crack width [m]: 1.5e-08
	- Negative electrode number of cracks per unit area [m-2]: 3180000000000000.0
	- Negative electrode Paris' law constant b: 1.12
	- Negative electrode Paris' law constant m: 2.2
	- Negative electrode cracking rate: <function graphite_cracking_rate_Ai2020 at 0x000001ED6E4B6EA0>
	- Negative electrode activation energy for cracking rate [J.mol-1]: 0.0
	- Negative electrode LAM constant proportional term [s-1]: 0.0
	- Negative electrode LAM constant exponential term: 2.0
	- Negative electrode critical stress [Pa]: 60000000.0
	- Positive electrode conductivity [S.m-1]: 10.0
	- Maximum concentration in positive electrode [mol.m-3]: 49943.0
	- Positive electrode diffusivity [m2.s-1]: <function lico2_diffusivity_Dualfoil1998 at 0x000001ED6E4B6D90>
	- Positive electrode OCP [V]: ('lico2_ocp_Ai2020', ([array([0.43      , 0.43664, 0.437906, 0.4391725 , 0.440439,
       0.441705, 0.442972, 0.444238, 0.4455043 , 0.446771,
       0.448037, 0.449303, 0.45057, 0.451836, 0.453102,
       0.454369, 0.455635, 0.456902, 0.458168, 0.459434,
       0.4607006 , 0.461967, 0.463233, 0.4645, 0.465766,
       0.4670324 , 0.468299, 0.469565, 0.470831, 0.472098,
       0.473364, 0.474631, 0.475897, 0.477163, 0.47843,
       0.479696, 0.480962, 0.4822287 , 0.483495, 0.484761,
       0.486028, 0.487294, 0.4885605 , 0.489827, 0.491093,
       0.49236, 0.493626, 0.494892, 0.496159, 0.497425,
       0.498691, 0.499958, 0.501224, 0.50249, 0.5037568 ,
       0.505023, 0.50629, 0.507556, 0.508822, 0.5100886 ,
       0.511355, 0.512621, 0.513888, 0.515154, 0.51642,
       0.517687, 0.518953, 0.520219, 0.521486, 0.522752,
       0.524019, 0.525285, 0.526551, 0.527818, 0.529084,
       0.53035, 0.5316167 , 0.532883, 0.534149, 0.535416,
       0.536682, 0.537948, 0.539215, 0.540481, 0.541748,
       0.543014, 0.54428, 0.545547, 0.546813  , 0.548079,
       0.549346, 0.550612, 0.551878, 0.5531448 , 0.554411,
       0.555678, 0.556944, 0.55821, 0.559477, 0.560743,
       0.562009, 0.563276, 0.564542, 0.565808, 0.567075,
       0.568341, 0.569607, 0.570874, 0.57214, 0.573407,
       0.5746729 , 0.575939, 0.577206, 0.578472, 0.579738,
       0.581005, 0.582271, 0.583537, 0.584804, 0.58607,
       0.587336, 0.588603, 0.589869, 0.591136, 0.592402,
       0.593668, 0.594935, 0.596201  , 0.597467, 0.598734,
       0.6, 0.601266, 0.6025328 , 0.603799, 0.605066,
       0.606332, 0.607598, 0.608865, 0.610131, 0.611397,
       0.612664, 0.61393, 0.615196, 0.616463, 0.6177291 ,
       0.618995, 0.620262, 0.621528, 0.622795, 0.6240609 ,
       0.625327, 0.626594, 0.62786, 0.629126, 0.630393,
       0.631659, 0.632925, 0.634192, 0.635458, 0.636724,
       0.637991, 0.6392572 , 0.640524, 0.64179, 0.643056,
       0.644323, 0.645589  , 0.646855, 0.648122, 0.649388,
       0.650654, 0.651921, 0.653187, 0.654454, 0.65572,
       0.656986, 0.658253, 0.659519, 0.6607853 , 0.662052,
       0.663318, 0.664584, 0.665851, 0.6671171 , 0.668383,
       0.66965, 0.670916, 0.672183, 0.673449, 0.674715,
       0.675982, 0.677248, 0.678514, 0.679781, 0.681047,
       0.682313, 0.68358, 0.684846, 0.686112, 0.687379,
       0.6886452 , 0.689912, 0.691178, 0.692444, 0.693711,
       0.694977  , 0.696243, 0.69751, 0.698776, 0.700042,
       0.7013088 , 0.702575, 0.703842, 0.705108, 0.706374,
       0.707641, 0.708907, 0.710173, 0.71144, 0.712706,
       0.713972, 0.715239, 0.7165051 , 0.717771, 0.719038,
       0.720304, 0.721571, 0.7228369 , 0.724103, 0.72537,
       0.726636, 0.727902, 0.729169, 0.730435, 0.731701,
       0.732968, 0.734234, 0.7355, 0.736767, 0.738033,
       0.7393, 0.740566, 0.741832, 0.743099, 0.744365  ,
       0.745631, 0.746898, 0.748164, 0.74943, 0.750697,
       0.751963, 0.75323, 0.754496, 0.755762, 0.757029,
       0.758295, 0.759561, 0.760828, 0.762094, 0.76336,
       0.764627, 0.7658931 , 0.767159, 0.768426, 0.769692,
       0.770959, 0.7722249 , 0.773491, 0.774758, 0.776024,
       0.77729, 0.778557, 0.779823, 0.781089, 0.782356,
       0.783622, 0.784888, 0.786155, 0.7874212 , 0.788688,
       0.789954, 0.79122, 0.792487, 0.793753  , 0.795019,
       0.796286, 0.797552, 0.798818, 0.800085, 0.801351,
       0.802618, 0.803884, 0.80515, 0.806417, 0.807683,
       0.8089493 , 0.810216, 0.811482, 0.812748, 0.814015,
       0.8152811 , 0.816547, 0.817814, 0.81908, 0.820347,
       0.821613, 0.822879, 0.824146, 0.825412, 0.826678,
       0.827945, 0.829211, 0.8304774 , 0.831744, 0.83301,
       0.834276, 0.835543, 0.8368092 , 0.838076, 0.839342,
       0.840608, 0.841875, 0.843141, 0.844407, 0.845674,
       0.84694, 0.848206, 0.849473, 0.850739, 0.852006,
       0.853272, 0.854538, 0.855805, 0.857071, 0.8583373 ,
       0.859604, 0.86087, 0.862136, 0.863403, 0.864669,
       0.865935, 0.867202, 0.868468, 0.869735, 0.871001,
       0.872267, 0.873534, 0.8748, 0.876066, 0.877333,
       0.878599, 0.8798654 , 0.881132, 0.882398, 0.883664,
       0.884931, 0.8861972 , 0.887464, 0.88873, 0.889996,
       0.891263, 0.892529, 0.893795, 0.895062, 0.896328,
       0.897594, 0.898861, 0.900127, 0.9013935 , 0.90266,
       0.903926, 0.905193, 0.906459, 0.9077253 , 0.908992,
       0.910258, 0.911524, 0.912791, 0.914057, 0.915323,
       0.91659, 0.917856, 0.919123, 0.920389, 0.921655,
       0.9229216 , 0.924188, 0.925454, 0.926721, 0.927987,
       0.9292534 , 0.93052, 0.931786, 0.933052, 0.934319,
       0.935585, 0.936852, 0.938118, 0.939384, 0.940651,
       0.941917, 0.943183, 0.9444497 , 0.945716, 0.946982,
       0.948249, 0.949515, 0.9507815 , 0.952048, 0.953314,
       0.954581, 0.955847, 0.957113, 0.95838, 0.959646,
       0.960912, 0.962179, 0.963445, 0.964711, 0.9659778 ,
       0.967244, 0.968511, 0.969777, 0.971043, 0.9723096 ,
       0.973576, 0.974842, 0.976109, 0.977375, 0.978641,
       0.979908, 0.981174, 0.98244, 0.983707, 0.984973,
       0.98624, 0.987506, 0.988772, 0.990039, 0.991305,
       0.992571, 0.9938377 , 0.995104, 0.99637, 0.997637,
       0.998903])], array([4.3       , 4.27991, 4.27647, 4.2738, 4.27113,
       4.26865, 4.26617, 4.26369, 4.26121, 4.25872,
       4.25624, 4.25376, 4.25128, 4.248992  , 4.24651,
       4.24422, 4.24174, 4.23926, 4.23697, 4.23468,
       4.2322, 4.22972, 4.22724, 4.22514, 4.22266,
       4.22037, 4.21789, 4.2156, 4.21331 , 4.21102,
       4.20853, 4.20624 , 4.20395, 4.20166, 4.19937,
       4.19708, 4.19479, 4.1925, 4.19021, 4.18792,
       4.18582, 4.18353, 4.18105, 4.17895, 4.17686,
       4.17457 , 4.17228, 4.16999, 4.16789, 4.16579,
       4.16369, 4.16159, 4.1593, 4.15739, 4.15529,
       4.15319, 4.15109, 4.14899, 4.14689, 4.14479,
       4.1425, 4.14041 , 4.13831, 4.13621, 4.13411,
       4.13182, 4.12972, 4.12762, 4.12552, 4.12323,
       4.12113, 4.11922, 4.11693, 4.11502, 4.11273 ,
       4.11063, 4.10873 , 4.10682, 4.10472, 4.10262,
       4.1009, 4.09861, 4.0967, 4.09499, 4.09289,
       4.09098, 4.08907, 4.08735, 4.08544, 4.08354,
       4.08182, 4.07991, 4.07819, 4.07647, 4.07457,
       4.07285, 4.07113, 4.06941, 4.0677, 4.06598 ,
       4.06445, 4.06273, 4.06121, 4.0593, 4.05777,
       4.05605, 4.05453, 4.05281, 4.05128, 4.04957,
       4.04804, 4.04632, 4.0448, 4.04327, 4.04155,
       4.04002, 4.03831, 4.03697, 4.03525, 4.03373,
       4.0322, 4.03067, 4.02915, 4.02762, 4.02609,
       4.02457, 4.02304, 4.0217, 4.02018, 4.01884,
       4.01731, 4.01579, 4.01426, 4.01293, 4.01159,
       4.01025, 4.00873, 4.00739, 4.00606, 4.00472,
       4.00338, 4.00186, 4.00071, 3.99938, 3.99785,
       3.9967, 3.99537, 3.99403, 3.99289, 3.99155,
       3.99022, 3.98907 , 3.98773, 3.9864, 3.98525,
       3.98411, 3.98277, 3.98163, 3.98029, 3.97915,
       3.97819, 3.97686, 3.97571, 3.97457, 3.97342,
       3.97228, 3.97094, 3.96999 , 3.96884, 3.9677,
       3.96674, 3.9656, 3.96445 , 3.9635, 3.96235,
       3.96121, 3.96025, 3.95911, 3.95815, 3.9572,
       3.95606, 3.9551, 3.95415, 3.953, 3.95205,
       3.95128, 3.95014, 3.94919, 3.94823, 3.94728,
       3.94651, 3.94537, 3.94461, 3.94365, 3.9427,
       3.94193, 3.94098, 3.94003, 3.93926, 3.93831 ,
       3.93754, 3.93659, 3.93583, 3.93487, 3.93411,
       3.93335, 3.93258, 3.93182, 3.93087, 3.93029,
       3.92934, 3.92858, 3.92781, 3.92705, 3.92629,
       3.92552, 3.92495, 3.92419, 3.92361, 3.92285,
       3.92209, 3.92132, 3.92075, 3.91999, 3.91922,
       3.91865, 3.91808, 3.91751, 3.91693, 3.91636,
       3.91579, 3.91503, 3.91464 , 3.91388, 3.91331,
       3.91274, 3.912163  , 3.91178, 3.91121, 3.91064 ,
       3.91006, 3.90949, 3.90892, 3.90854, 3.90816,
       3.90758, 3.90701, 3.90663 , 3.90606, 3.90587,
       3.90529, 3.90491, 3.90453, 3.90396, 3.90358,
       3.90319, 3.90281, 3.90262 , 3.90224, 3.90186,
       3.90148, 3.90109 , 3.9009, 3.90052, 3.90014,
       3.89995, 3.89976, 3.89938, 3.89919, 3.899,
       3.89861, 3.89842, 3.89804, 3.89785, 3.89766,
       3.89747, 3.89728, 3.89709 , 3.89671, 3.89671,
       3.89651, 3.89632, 3.89632, 3.89613, 3.89575,
       3.89575, 3.89556 , 3.89537, 3.89518, 3.89499,
       3.8948, 3.89461, 3.89461, 3.89442, 3.89422,
       3.89403 , 3.89403 , 3.89384, 3.89365, 3.89365,
       3.89346, 3.89327, 3.89327, 3.89308, 3.89289,
       3.8927, 3.8927, 3.89251, 3.89232, 3.89213,
       3.89193, 3.89193, 3.89174, 3.89155 , 3.89136,
       3.89117, 3.89098, 3.89098, 3.89079, 3.8906,
       3.89041, 3.89022, 3.89003 , 3.88983, 3.88983,
       3.88964, 3.88926, 3.88907, 3.88888, 3.88869,
       3.8885, 3.88831, 3.88812, 3.88774, 3.88754 ,
       3.88735, 3.88716, 3.88697, 3.88659, 3.88621,
       3.88602 , 3.88583, 3.88545, 3.88506, 3.88487,
       3.88449 , 3.8843, 3.88392, 3.88373, 3.88335,
       3.88277, 3.88258, 3.8822, 3.88182, 3.88144,
       3.88106, 3.88067, 3.8801, 3.87953, 3.87915,
       3.87858, 3.87819, 3.87781, 3.87724, 3.87667,
       3.87609, 3.87552, 3.87495 , 3.87438, 3.87361,
       3.87304, 3.87247, 3.87171, 3.87113, 3.87037,
       3.86942 , 3.86884, 3.86808, 3.86713, 3.86617,
       3.86541 , 3.86445, 3.8635, 3.86255, 3.8614 ,
       3.86026, 3.8593, 3.85816, 3.85682, 3.85567,
       3.85415, 3.853, 3.85148, 3.84995, 3.84842,
       3.8469, 3.84499, 3.84327 , 3.84136, 3.83926 ,
       3.83716, 3.83506, 3.83258, 3.8301, 3.82743,
       3.82476, 3.8219, 3.81884, 3.8156, 3.81216,
       3.80854, 3.80491, 3.8009, 3.7969, 3.7927,
       3.78831, 3.78392, 3.77915, 3.77457, 3.76961,
       3.76503, 3.76007, 3.7551, 3.75014, 3.74518,
       3.740218  , 3.73507, 3.72991, 3.72476, 3.71942,
       3.71388, 3.70816, 3.70224, 3.69613, 3.68946 ,
       3.68239 , 3.67476, 3.66636, 3.65663, 3.64556,
       3.6322, 3.61522, 3.59194 , 3.5572, 3.5011,
       3.40892 ])))
	- Positive electrode porosity: 0.32
	- Positive electrode active material volume fraction: 0.62
	- Positive particle radius [m]: 3e-06
	- Positive electrode surface area to volume ratio [m-1]: 620000.0
	- Positive electrode Bruggeman coefficient (electrolyte): 1.83
	- Positive electrode Bruggeman coefficient (electrode): 0.0
	- Positive electrode cation signed stoichiometry: -1.0
	- Positive electrode electrons in reaction: 1.0
	- Positive electrode charge transfer coefficient: 0.5
	- Positive electrode exchange-current density [A.m-2]: <function lico2_electrolyte_exchange_current_density_Dualfoil1998 at 0x000001ED6E4B69D8>
	- Positive electrode density [kg.m-3]: 2470.0
	- Positive electrode specific heat capacity [J.kg-1.K-1]: 1080.2
	- Positive electrode thermal conductivity [W.m-1.K-1]: 1.58
	- Positive electrode OCP entropic change [V.K-1]: <function lico2_entropic_change_Ai2020_function at 0x000001ED6E4B6F28>
	- Positive electrode Poisson's ratio: 0.2
	- Positive electrode Young's modulus [Pa]: 375000000000.0
	- Positive electrode reference concentration for free of deformation [mol.m-3]: 0.0
	- Positive electrode partial molar volume [m3.mol-1]: -7.28e-07
	- Positive electrode volume change: <function lico2_volume_change_Ai2020 at 0x000001ED6E4B6E18>
	- Positive electrode initial crack length [m]: 2e-08
	- Positive electrode initial crack width [m]: 1.5e-08
	- Positive electrode number of cracks per unit area [m-2]: 3180000000000000.0
	- Positive electrode Paris' law constant b: 1.12
	- Positive electrode Paris' law constant m: 2.2
	- Positive electrode cracking rate: <function lico2_cracking_rate_Ai2020 at 0x000001ED6E4B6BF8>
	- Positive electrode activation energy for cracking rate [J.mol-1]: 0.0
	- Positive electrode LAM constant proportional term [s-1]: 2.78e-13
	- Positive electrode LAM constant exponential term: 2.0
	- Positive electrode critical stress [Pa]: 375000000.0
	- Separator porosity: 0.5
	- Separator Bruggeman coefficient (electrolyte): 1.5
	- Separator density [kg.m-3]: 2470.0
	- Separator specific heat capacity [J.kg-1.K-1]: 1080.2
	- Separator thermal conductivity [W.m-1.K-1]: 0.334
	- Typical electrolyte concentration [mol.m-3]: 1000.0
	- Cation transference number: 0.38
	- 1 + dlnf/dlnc: <function dlnf_dlnc_Ai2020 at 0x000001ED6E4B6730>
	- Electrolyte diffusivity [m2.s-1]: <function electrolyte_diffusivity_Ai2020 at 0x000001ED6E4B6048>
	- Electrolyte conductivity [S.m-1]: <function electrolyte_conductivity_Ai2020 at 0x000001ED6E4B6840>
	- Reference temperature [K]: 298.15
	- Total heat transfer coefficient [W.m-2.K-1]: 35.0
	- Ambient temperature [K]: 298.15
	- Number of electrodes connected in parallel to make a cell: 34.0
	- Number of cells connected in series to make a battery: 1.0
	- Lower voltage cut-off [V]: 3.0
	- Upper voltage cut-off [V]: 4.2
	- Initial concentration in negative electrode [mol.m-3]: 24108.0
	- Initial concentration in positive electrode [mol.m-3]: 21725.0
	- Initial concentration in electrolyte [mol.m-3]: 1000.0
	- Initial temperature [K]: 298.15
	- Inner SEI reaction proportion: 0.5
	- Inner SEI partial molar volume [m3.mol-1]: 9.585e-05
	- Outer SEI partial molar volume [m3.mol-1]: 9.585e-05
	- SEI reaction exchange current density [A.m-2]: 1.5e-07
	- SEI resistivity [Ohm.m]: 200000.0
	- Outer SEI solvent diffusivity [m2.s-1]: 2.5e-22
	- Bulk solvent concentration [mol.m-3]: 2636.0
	- Ratio of inner and outer SEI exchange current densities: 1.0
	- Inner SEI open-circuit potential [V]: 0.1
	- Outer SEI open-circuit potential [V]: 0.8
	- Inner SEI electron conductivity [S.m-1]: 8.95e-14
	- Inner SEI lithium interstitial diffusivity [m2.s-1]: 1e-20
	- Lithium interstitial reference concentration [mol.m-3]: 15.0
	- Initial inner SEI thickness [m]: 2.5e-09
	- Initial outer SEI thickness [m]: 2.5e-09
	- EC initial concentration in electrolyte [mol.m-3]: 4541.0
	- EC diffusivity [m2.s-1]: 2e-18
	- SEI kinetic rate constant [m.s-1]: 1e-12
	- SEI open-circuit potential [V]: 0.4
	- Negative electrode reaction-driven LAM factor [m3.mol-1]: 0.0
	- Positive electrode reaction-driven LAM factor [m3.mol-1]: 0.0